Folder: ME470_FA24_TestFrame/frontend

Note: README.md
<h1>ME 470 TEST FRAME APPLICATION MANUAL</h1>

File: metal_force_vs_displacement.csv
Displacement (mm),Force (N)
0.0,0.0
0.0025641,1.02564
0.00512821,2.05128
0.00769231,3.07692
0.0102564,4.10256
0.0128205,5.12821
0.0153846,6.15385
0.0179487,7.17949
0.0205128,8.20513
0.0230769,9.23077
0.025641,10.2564
0.0282051,11.2821
0.0307692,12.3077
0.0333333,13.3333
0.0358974,14.359
0.0384615,15.3846
0.0410256,16.4103
0.0435897,17.4359
0.0461538,18.4615
0.0487179,19.4872
0.0512821,20.5128
0.0538462,21.5385
0.0564103,22.5641
0.0589744,23.5897
0.0615385,24.6154
0.0641026,25.641
0.0666667,26.6667
0.0692308,27.6923
0.0717949,28.7179
0.074359,29.7436
0.0769231,30.7692
0.0794872,31.7949
0.0820513,32.8205
0.0846154,33.8462
0.0871795,34.8718
0.0897436,35.8974
0.0923077,36.9231
0.0948718,37.9487
0.0974359,38.9744
0.1,40.0
0.1,24.5364
0.161538,25.2301
0.223077,25.502
0.284615,26.3417
0.346154,27.5954
0.407692,26.851
0.469231,26.7772
0.530769,28.306
0.592308,28.4104
0.653846,27.6669
0.715385,28.1546
0.776923,28.9388
0.838462,29.0261
0.9,30.5814
0.961538,30.8794
1.02308,30.9394
1.08462,31.537
1.14615,31.295
1.20769,31.5296
1.26923,31.6839
1.33077,33.041
1.39231,33.0225
1.45385,33.3881
1.51538,33.8263
1.57692,33.7276
1.63846,34.2376
1.7,34.7273
1.76154,35.1125
1.82308,35.695
1.88462,35.8035
1.94615,37.2755
2.00769,36.6314
2.06923,36.9605
2.13077,37.8426
2.19231,38.9432
2.25385,38.1362
2.31538,38.6622
2.37692,39.2432
2.43846,39.2039
2.5,39.7165
2.5,38.7262
2.57895,40.787
2.65789,36.4029
2.73684,36.9319
2.81579,36.3122
2.89474,33.6413
2.97368,35.0954
3.05263,33.2371
3.13158,29.4629
3.21053,29.5525
3.28947,28.7186
3.36842,29.2519
3.44737,26.0094
3.52632,27.5617
3.60526,26.0849
3.68421,22.0478
3.76316,22.0009
3.84211,23.3714
3.92105,23.6603
4.0,19.7311